File: data/example outputs/XRD/2Theta_Intensity_Data.csv
2Theta,Intensity
5.01,20
5.09,21
5.17,12
5.25,22
5.33,21
5.41,18
5.49,6
5.57,13
5.65,22
5.73,17
5.81,16
5.89,21
5.97,19
6.05,17
6.13,14
6.21,8
6.29,19
6.37,16
6.45,20
6.53,16
6.61,25
6.69,21
6.77,11
6.85,8
6.93,22
7.01,10
7.09,7
7.17,5
7.25,17
7.33,16
7.41,10
7.49,17
7.57,17
7.65,16
7.73,5
7.81,14
7.89,19
7.97,12
8.05,19
8.13,9
8.21,13
8.29,10
8.37,12
8.45,9
8.53,11
8.61,8
8.69,12
8.77,7
8.85,8
8.93,14
9.01,4
9.09,10
9.17,13
9.25,7
9.33,17
9.41,11
9.49,12
9.57,9
9.65,8
9.73,13
9.81,12
9.89,14
9.97,7
10.05,15
10.13,16
10.21,13
10.29,3
10.37,12
10.45,22
10.53,10
10.61,16
10.69,11
10.77,14
10.85,4
10.93,16
11.01,11
11.09,14
11.17,8
11.25,13
11.33,10
11.41,15
11.49,10
11.57,9
11.65,16
11.73,12
11.81,9
11.89,12
11.97,10
12.05,9
12.13,18
12.21,11
12.29,9
12.37,11
12.45,15
12.53,16
12.61,9
12.69,17
12.77,9
12.85,14
12.93,5
13.01,2
13.09,13
13.17,9
13.25,7
13.33,12
13.41,9
13.49,10
13.57,12
13.65,16
13.73,7
13.81,12
13.89,14
13.97,13
14.05,13
14.13,13
14.21,9
14.29,10
14.37,10
14.45,13
14.53,11
14.61,11
14.69,9
14.77,13
14.85,7
14.93,7
15.01,8
15.09,6
15.17,9
15.25,7
15.33,10
15.41,15
15.49,12
15.57,12
15.65,8
15.73,8
15.81,7
15.89,10
15.97,9
16.05,12
16.13,15
16.21,9
16.29,15
16.37,15
16.45,14
16.53,16
16.61,10
16.69,12
16.77,10
16.85,14
16.93,13
17.01,10
17.09,11
17.17,20
17.25,15
17.33,12
17.41,6
17.49,9
17.57,16
17.65,16
17.73,11
17.81,13
17.89,8
17.97,8
18.05,5
18.13,10
18.21,6
18.29,5
18.37,8
18.45,15
18.53,14
18.61,9
18.69,6
18.77,9
18.85,8
18.93,14
19.01,7
19.09,12
19.17,13
19.25,11
19.33,14
19.41,12
19.49,12
19.57,8
19.65,8
19.73,14
19.81,13
19.89,13
19.97,14
20.05,6
20.13,5
20.21,3
20.29,13
20.37,6
20.45,8
20.53,6
20.61,12
20.69,8
20.77,10
20.85,6
20.93,10
21.01,14
21.09,6
21.17,4
21.25,9
21.33,7
21.41,14
21.49,10
21.57,7
21.65,10
21.73,8
21.81,13
21.89,5
21.97,12
22.05,17
22.13,8
22.21,12
22.29,10
22.37,9
22.45,13
22.53,15
22.61,26
22.69,275
22.77,12446
22.85,70
22.93,15
23.01,12
23.09,10
23.17,14
23.25,8
23.33,11
23.41,5
23.49,14
23.57,7
23.65,7
23.73,10
23.81,9
23.89,8
23.97,8
24.05,5
24.13,12
24.21,7
24.29,10
24.37,15
24.45,7
24.53,8
24.61,5
24.69,8
24.77,8
24.85,7
24.93,4
25.01,2
25.09,10
25.17,3
25.25,5
25.33,4
25.41,10
25.49,10
25.57,9
25.65,3
25.73,7
25.81,12
25.89,8
25.97,8
26.05,7
26.13,6
26.21,7
26.29,7
26.37,11
26.45,7
26.53,7
26.61,9
26.69,11
26.77,8
26.85,10
26.93,8
27.01,10
27.09,7
27.17,12
27.25,9
27.33,11
27.41,9
27.49,8
27.57,7
27.65,8
27.73,5
27.81,12
27.89,8
27.97,17
28.05,9
28.13,13
28.21,13
28.29,8
28.37,11
28.45,10
28.53,12
28.61,10
28.69,15
28.77,7
28.85,9
28.93,4
29.01,4
29.09,7
29.17,10
29.25,5
29.33,5
29.41,10
29.49,6
29.57,4
29.65,6
29.73,8
29.81,6
29.89,4
29.97,5
30.05,4
30.13,5
30.21,9
30.29,7
30.37,7
30.45,9
30.53,2
30.61,8
30.69,5
30.77,9
30.85,4
30.93,7
31.01,6
31.09,6
31.17,3
31.25,5
31.33,7
31.41,7
31.49,5
31.57,4
31.65,8
31.73,3
31.81,6
31.89,8
31.97,6
32.05,4
32.13,5
32.21,7
32.29,6
32.37,6
32.45,6
32.53,0
32.61,3
32.69,4
32.77,6
32.85,2
32.93,10
33.01,13
33.09,10
33.17,12
33.25,9
33.33,9
33.41,16
33.49,10
33.57,13
33.65,14
33.73,15
33.81,11
33.89,18
33.97,16
34.05,20
34.13,13
34.21,17
34.29,14
34.37,10
34.45,13
34.53,12
34.61,10
34.69,6
34.77,9
34.85,12
34.93,7
35.01,3
35.09,6
35.17,8
35.25,10
35.33,8
35.41,1
35.49,3
35.57,10
35.65,2
35.73,6
35.81,2
35.89,6
35.97,6
36.05,5
36.13,3
36.21,5
36.29,1
36.37,3
36.45,3
36.53,4
36.61,5
36.69,3
36.77,7
36.85,4
36.93,2
37.01,8
37.09,5
37.17,3
37.25,4
37.33,3
37.41,1
37.49,2
37.57,5
37.65,2
37.73,0
37.81,3
37.89,5
37.97,5
38.05,4
38.13,5
38.21,4
38.29,2
38.37,2
38.45,3
38.53,1
38.61,2
38.69,2
38.77,4
38.85,3
38.93,4
39.01,4
39.09,3
39.17,5
39.25,2
39.33,2
39.41,8
39.49,5
39.57,3
39.65,3
39.73,5
39.81,2
39.89,4
39.97,4
40.05,3
40.13,5
40.21,2
40.29,2
40.37,4
40.45,5
40.53,5
40.61,3
40.69,4
40.77,1
40.85,3
40.93,1
41.01,3
41.09,2
41.17,4
41.25,4
41.33,3
41.41,3
41.49,2
41.57,1
41.65,3
41.73,5
41.81,5
41.89,3
41.97,8
42.05,3
42.13,1
42.21,3
42.29,1
42.37,6
42.45,5
42.53,3
42.61,5
42.69,5
42.77,5
42.85,3
42.93,3
43.01,3
43.09,3
43.17,3
43.25,5
43.33,5
43.41,3
43.49,1
43.57,1
43.65,2
43.73,4
43.81,6
43.89,4
43.97,5
44.05,4
44.13,2
44.21,3
44.29,2
44.37,5
44.45,7
44.53,5
44.61,6
44.69,6
44.77,3
44.85,4
44.93,6
45.01,6
45.09,5
45.17,3
45.25,8
45.33,12
45.41,14
45.49,11
45.57,15
45.65,10
45.73,14
45.81,20
45.89,22
45.97,32
46.05,39
46.13,65
46.21,112
46.29,224
46.37,959
46.45,527383
46.53,2908
46.61,291
46.69,101
46.77,58
46.85,43
46.93,19
47.01,21
47.09,17
47.17,17
47.25,11
47.33,11
47.41,8
47.49,4
47.57,6
47.65,7
47.73,5
47.81,6
47.89,7
47.97,1
48.05,1
48.13,2
48.21,9
48.29,2
48.37,3
48.45,2
48.53,3
48.61,1
48.69,6
48.77,3
48.85,0
48.93,3
49.01,6
49.09,3
49.17,4
49.25,8
49.33,4
49.41,3
49.49,2
49.57,5
49.65,4
49.73,6
49.81,4
49.89,5
49.97,5
50.05,4
50.13,1
50.21,1
50.29,2
50.37,5
50.45,1
50.53,2
50.61,2
50.69,2
50.77,1
50.85,1
50.93,3
51.01,1
51.09,1
51.17,1
51.25,3
51.33,3
51.41,1
51.49,1
51.57,0
51.65,4
51.73,1
51.81,1
51.89,2
51.97,1
52.05,0
52.13,4
52.21,2
52.29,4
52.37,5
52.45,1
52.53,2
52.61,2
52.69,4
52.77,3
52.85,1
52.93,0
53.01,1
53.09,0
53.17,1
53.25,4
53.33,1
53.41,3
53.49,1
53.57,3
53.65,3
53.73,2
53.81,2
53.89,2
53.97,1
54.05,0
54.13,0
54.21,2
54.29,3
54.37,0
54.45,1
54.53,5
54.61,5
54.69,2
54.77,1
54.85,4
54.93,2
55.01,1
55.09,6
55.17,2
55.25,0
55.33,2
55.41,1
55.49,3
55.57,0
55.65,6
55.73,2
55.81,1
55.89,5
55.97,3
56.05,3
56.13,5
56.21,2
56.29,2
56.37,1
56.45,0
56.53,2
56.61,2
56.69,4
56.77,1
56.85,1
56.93,2
57.01,2
57.09,4
57.17,2
57.25,0
57.33,3
57.41,0
57.49,2
57.57,2
57.65,2
57.73,3
57.81,3
57.89,4
57.97,0
58.05,2
58.13,2
58.21,1
58.29,3
58.37,1
58.45,0
58.53,3
58.61,1
58.69,0
58.77,1
58.85,5
58.93,1
59.01,1
59.09,1
59.17,2
59.25,3
59.33,2
59.41,2
59.49,1
59.57,2
59.65,3
59.73,2
59.81,1
59.89,2
59.97,2
60.05,4
60.13,1
60.21,1
60.29,2
60.37,2
60.45,0
60.53,2
60.61,4
60.69,3
60.77,1
60.85,1
60.93,0
61.01,1
61.09,4
61.17,3
61.25,7
61.33,1
61.41,5
61.49,3
61.57,2
61.65,1
61.73,0
61.81,3
61.89,2
61.97,1
62.05,1
62.13,1
62.21,3
62.29,0
62.37,4
62.45,2
62.53,4
62.61,5
62.69,1
62.77,4
62.85,1
62.93,4
63.01,1
63.09,4
63.17,0
63.25,3
63.33,4
63.41,3
63.49,2
63.57,3
63.65,2
63.73,3
63.81,2
63.89,2
63.97,4
64.05,2
64.13,1
64.21,2
64.29,1
64.37,5
64.45,4
64.53,1
64.61,2
64.69,2
64.77,2
64.85,1
64.93,7
65.01,2
65.09,2
65.17,2
65.25,2
65.33,1
65.41,2
65.49,1
65.57,4
65.65,1
65.73,4
65.81,2
65.89,2
65.97,3
66.05,2
66.13,3
66.21,2
66.29,3
66.37,3
66.45,1
66.53,4
66.61,2
66.69,1
66.77,5
66.85,3
66.93,2
67.01,3
67.09,4
67.17,4
67.25,1
67.33,2
67.41,3
67.49,3
67.57,5
67.65,1
67.73,1
67.81,2
67.89,3
67.97,2
68.05,0
68.13,3
68.21,0
68.29,1
68.37,2
68.45,2
68.53,1
68.61,0
68.69,2
68.77,0
68.85,3
68.93,2
69.01,2
69.09,0
69.17,1
69.25,1
69.33,4
69.41,2
69.49,2
69.57,1
69.65,5
69.73,6
69.81,1
69.89,2
69.97,2
70.05,1
70.13,1
70.21,3
70.29,3
70.37,4
70.45,1
70.53,2
70.61,4
70.69,2
70.77,1
70.85,2
70.93,4
71.01,1
71.09,0
71.17,5
71.25,1
71.33,2
71.41,1
71.49,5
71.57,4
71.65,4
71.73,3
71.81,4
71.89,1
71.97,2
72.05,2
72.13,3
72.21,2
72.29,1
72.37,3
72.45,15
72.53,6376
72.61,84
72.69,6
72.77,3
72.85,6
72.93,3
73.01,4
73.09,6
73.17,2
73.25,2
73.33,5
73.41,1
73.49,3
73.57,3
73.65,3
73.73,2
73.81,0
73.89,2
73.97,3
74.05,1
74.13,3
74.21,2
74.29,3
74.37,1
74.45,2
74.53,2
74.61,4
74.69,4
74.77,1
74.85,0
74.93,2
75.01,2
75.09,1
75.17,0
75.25,4
75.33,0
75.41,1
75.49,1
75.57,2
75.65,5
75.73,3
75.81,4
75.89,2
75.97,1
76.05,1
76.13,2
76.21,4
76.29,0
76.37,0
76.45,1
76.53,2
76.61,3
76.69,1
76.77,2
76.85,2
76.93,3
77.01,3
77.09,0
77.17,3
77.25,1
77.33,4
77.41,2
77.49,3
77.57,0
77.65,0
77.73,2
77.81,2
77.89,0
77.97,3
78.05,0
78.13,1
78.21,2
78.29,3
78.37,1
78.45,1
78.53,1
78.61,1
78.69,1
78.77,1
78.85,1
78.93,2
79.01,1
79.09,3
79.17,1
79.25,1
79.33,1
79.41,1
79.49,3
79.57,1
79.65,1
79.73,3
79.81,0
79.89,0
79.97,0
80.05,1
80.13,5
80.21,1
80.29,3
80.37,2
80.45,3
80.53,1
80.61,2
80.69,1
80.77,2
80.85,2
80.93,2
81.01,1
81.09,3
81.17,2
81.25,1
81.33,1
81.41,1
81.49,5
81.57,4
81.65,4
81.73,1
81.81,0
81.89,2
81.97,2
82.05,4
82.13,1
82.21,4
82.29,0
82.37,2
82.45,2
82.53,0
82.61,0
82.69,3
82.77,1
82.85,2
82.93,2
83.01,2
83.09,1
83.17,2
83.25,2
83.33,2
83.41,5
83.49,1
83.57,3
83.65,3
83.73,3
83.81,5
83.89,0
83.97,1
84.05,2
84.13,1
84.21,2
84.29,2
84.37,2
84.45,2
84.53,1
84.61,2
84.69,1
84.77,0
84.85,1
84.93,2
85.01,1
85.09,1
85.17,0
85.25,2
85.33,3
85.41,0
85.49,4
85.57,0
85.65,2
85.73,0
85.81,4
85.89,0
85.97,5
86.05,2
86.13,1
86.21,1
86.29,3
86.37,3
86.45,1
86.53,4
86.61,1
86.69,2
86.77,0
86.85,4
86.93,1
87.01,3
87.09,1
87.17,1
87.25,2
87.33,0
87.41,0
87.49,0
87.57,1
87.65,0
87.73,3
87.81,0
87.89,2
87.97,4
88.05,1
88.13,2
88.21,1
88.29,1
88.37,4
88.45,2
88.53,2
88.61,1
88.69,2
88.77,1
88.85,2
88.93,1
89.01,0
89.09,2
89.17,2
89.25,2
89.33,1
89.41,3
89.49,2
89.57,2
89.65,4
89.73,1
89.81,2
89.89,2
89.97,2
90.05,0
90.13,1
90.21,0
90.29,2
90.37,1
90.45,1
90.53,1
90.61,1
90.69,1
90.77,0
90.85,1
90.93,1
91.01,1
91.09,0
91.17,0
91.25,0
91.33,3
91.41,1
91.49,1
91.57,3
91.65,0
91.73,1
91.81,2
91.89,0
91.97,1
92.05,2
92.13,1
92.21,3
92.29,1
92.37,1
92.45,1
92.53,4
92.61,4
92.69,0
92.77,3
92.85,1
92.93,3
93.01,2
93.09,2
93.17,2
93.25,3
93.33,5
93.41,0
93.49,3
93.57,1
93.65,1
93.73,0
93.81,4
93.89,3
93.97,1
94.05,3
94.13,3
94.21,3
94.29,0
94.37,2
94.45,1
94.53,0
94.61,3
94.69,3
94.77,1
94.85,1
94.93,1
95.01,3
95.09,2
95.17,0
95.25,1
95.33,0
95.41,2
95.49,1
95.57,6
95.65,1
95.73,1
95.81,1
95.89,0
95.97,1
96.05,3
96.13,1
96.21,2
96.29,2
96.37,0
96.45,0
96.53,1
96.61,2
96.69,3
96.77,2
96.85,1
96.93,2
97.01,1
97.09,1
97.17,4
97.25,1
97.33,4
97.41,4
97.49,2
97.57,4
97.65,1
97.73,2
97.81,0
97.89,0
97.97,2
98.05,4
98.13,2
98.21,1
98.29,1
98.37,1
98.45,1
98.53,3
98.61,4
98.69,0
98.77,3
98.85,4
98.93,1
99.01,1
99.09,0
99.17,1
99.25,0
99.33,0
99.41,2
99.49,2
99.57,2
99.65,1
99.73,2
99.81,2
99.89,1
99.97,2
100.05,0
100.13,0
100.21,2
100.29,2
100.37,2
100.45,2
100.53,1
100.61,0
100.69,0
100.77,3
100.85,3
100.93,1
101.01,3
101.09,4
101.17,3
101.25,1
101.33,3
101.41,3
101.49,2
101.57,3
101.65,1
101.73,3
101.81,2
101.89,1
101.97,3
102.05,3
102.13,4
102.21,3
102.29,0
102.37,1
102.45,1
102.53,3
102.61,0
102.69,3
102.77,0
102.85,5
102.93,1
103.01,1
103.09,5
103.17,4
103.25,3
103.33,3
103.41,6
103.49,7
103.57,7
103.65,7
103.73,8
103.81,11
103.89,24
103.97,44
104.05,208
104.13,12354
104.21,33374
104.29,452
104.37,47
104.45,23
104.53,10
104.61,10
104.69,7
104.77,9
104.85,1
104.93,6
105.01,6
105.09,2
105.17,4
105.25,2
105.33,2
105.41,1
105.49,1
105.57,2
105.65,2
105.73,0
105.81,4
105.89,1
105.97,4
106.05,1
106.13,3
106.21,1
106.29,2
106.37,3
106.45,4
106.53,0
106.61,2
106.69,0
106.77,0
106.85,1
106.93,1
107.01,0
107.09,1
107.17,1
107.25,2
107.33,1
107.41,0
107.49,0
107.57,2
107.65,2
107.73,1
107.81,1
107.89,0
107.97,3
108.05,0
108.13,3
108.21,2
108.29,3
108.37,1
108.45,1
108.53,0
108.61,2
108.69,1
108.77,2
108.85,2
108.93,3
109.01,1
109.09,0
109.17,2
109.25,1
109.33,1
109.41,1
109.49,0
109.57,0
109.65,2
109.73,4
109.81,2
109.89,0
109.97,3
110.05,0
110.13,2
110.21,2
110.29,1
110.37,1
110.45,2
110.53,1
110.61,2
110.69,1
110.77,2
110.85,1
110.93,2
111.01,1
111.09,2
111.17,2
111.25,0
111.33,0
111.41,0
111.49,0
111.57,0
111.65,2
111.73,0
111.81,2
111.89,0
111.97,1
112.05,1
112.13,1
112.21,4
112.29,0
112.37,0
112.45,2
112.53,2
112.61,1
112.69,1
112.77,1
112.85,2
112.93,1
113.01,2
113.09,3
113.17,2
113.25,0
113.33,2
113.41,1
113.49,2
113.57,1
113.65,1
113.73,0
113.81,1
113.89,0
113.97,1
114.05,3
114.13,1
114.21,0
114.29,1
114.37,1
114.45,1
114.53,2
114.61,1
114.69,1
114.77,1
114.85,0
114.93,4
115.01,0
115.09,1
115.17,1
115.25,2
115.33,3
115.41,0
115.49,3
115.57,1
115.65,4
115.73,2
115.81,1
115.89,1
115.97,2
116.05,5
116.13,1
116.21,1
116.29,1
116.37,1
116.45,1
116.53,1
116.61,1
116.69,2
116.77,0
116.85,0
116.93,3
117.01,2
117.09,1
117.17,1
117.25,5
117.33,1
117.41,2
117.49,4
117.57,2
117.65,0
117.73,1
117.81,0
117.89,1
117.97,2
118.05,1
118.13,3
118.21,2
118.29,0
118.37,0
118.45,1
118.53,2
118.61,2
118.69,3
118.77,0
118.85,1
118.93,0
119.01,2
119.09,2
119.17,0
119.25,2
119.33,2
119.41,4
119.49,1
119.57,1
119.65,0
119.73,4
119.81,2
119.89,2
119.97,0
119.99,2