File: Example Data/XRD Data/XRD4_MBE1-230331A-MS_Gonio Pixcel_export.csv
Theta2,Intensity
5.01,56.8182
5.09,59.6591
5.17,34.0909
5.25,62.5
5.33,59.6591
5.41,51.1364
5.49,17.0455
5.57,36.9318
5.65,62.5
5.73,48.2955
5.81,45.4545
5.89,59.6591
5.97,53.9773
6.05,48.2955
6.13,39.7727
6.21,22.7273
6.29,53.9773
6.37,45.4545
6.45,56.8182
6.53,45.4545
6.61,71.0227
6.69,59.6591
6.77,31.25
6.85,22.7273
6.93,62.5
7.01,28.4091
7.09,19.8864
7.17,14.2045
7.25,48.2955
7.33,45.4545
7.41,28.4091
7.49,48.2955
7.57,48.2955
7.65,45.4545
7.73,14.2045
7.81,39.7727
7.89,53.9773
7.97,34.0909
8.05,53.9773
8.13,25.5682
8.21,36.9318
8.29,28.4091
8.37,34.0909
8.45,25.5682
8.53,31.25
8.61,22.7273
8.69,34.0909
8.77,19.8864
8.85,22.7273
8.93,39.7727
9.01,11.3636
9.09,28.4091
9.17,36.9318
9.25,19.8864
9.33,48.2955
9.41,31.25
9.49,34.0909
9.57,25.5682
9.65,22.7273
9.73,36.9318
9.81,34.0909
9.89,39.7727
9.97,19.8864
10.05,42.6136
10.13,45.4545
10.21,36.9318
10.29,8.52273
10.37,34.0909
10.45,62.5
10.53,28.4091
10.61,45.4545
10.69,31.25
10.77,39.7727
10.85,11.3636
10.93,45.4545
11.01,31.25
11.09,39.7727
11.17,22.7273
11.25,36.9318
11.33,28.4091
11.41,42.6136
11.49,28.4091
11.57,25.5682
11.65,45.4545
11.73,34.0909
11.81,25.5682
11.89,34.0909
11.97,28.4091
12.05,25.5682
12.13,51.1364
12.21,31.25
12.29,25.5682
12.37,31.25
12.45,42.6136
12.53,45.4545
12.61,25.5682
12.69,48.2955
12.77,25.5682
12.85,39.7727
12.93,14.2045
13.01,5.68182
13.09,36.9318
13.17,25.5682
13.25,19.8864
13.33,34.0909
13.41,25.5682
13.49,28.4091
13.57,34.0909
13.65,45.4545
13.73,19.8864
13.81,34.0909
13.89,39.7727
13.97,36.9318
14.05,36.9318
14.13,36.9318
14.21,25.5682
14.29,28.4091
14.37,28.4091
14.45,36.9318
14.53,31.25
14.61,31.25
14.69,25.5682
14.77,36.9318
14.85,19.8864
14.93,19.8864
15.01,22.7273
15.09,17.0455
15.17,25.5682
15.25,19.8864
15.33,28.4091
15.41,42.6136
15.49,34.0909
15.57,34.0909
15.65,22.7273
15.73,22.7273
15.81,19.8864
15.89,28.4091
15.97,25.5682
16.05,34.0909
16.13,42.6136
16.21,25.5682
16.29,42.6136
16.37,42.6136
16.45,39.7727
16.53,45.4545
16.61,28.4091
16.69,34.0909
16.77,28.4091
16.85,39.7727
16.93,36.9318
17.01,28.4091
17.09,31.25
17.17,56.8182
17.25,42.6136
17.33,34.0909
17.41,17.0455
17.49,25.5682
17.57,45.4545
17.65,45.4545
17.73,31.25
17.81,36.9318
17.89,22.7273
17.97,22.7273
18.05,14.2045
18.13,28.4091
18.21,17.0455
18.29,14.2045
18.37,22.7273
18.45,42.6136
18.53,39.7727
18.61,25.5682
18.69,17.0455
18.77,25.5682
18.85,22.7273
18.93,39.7727
19.01,19.8864
19.09,34.0909
19.17,36.9318
19.25,31.25
19.33,39.7727
19.41,34.0909
19.49,34.0909
19.57,22.7273
19.65,22.7273
19.73,39.7727
19.81,36.9318
19.89,36.9318
19.97,39.7727
20.05,17.0455
20.13,14.2045
20.21,8.52273
20.29,36.9318
20.37,17.0455
20.45,22.7273
20.53,17.0455
20.61,34.0909
20.69,22.7273
20.77,28.4091
20.85,17.0455
20.93,28.4091
21.01,39.7727
21.09,17.0455
21.17,11.3636
21.25,25.5682
21.33,19.8864
21.41,39.7727
21.49,28.4091
21.57,19.8864
21.65,28.4091
21.73,22.7273
21.81,36.9318
21.89,14.2045
21.97,34.0909
22.05,48.2955
22.13,22.7273
22.21,34.0909
22.29,28.4091
22.37,25.5682
22.45,36.9318
22.53,42.6136
22.61,73.8636
22.69,781.25
22.77,35358
22.85,198.864
22.93,42.6136
23.01,34.0909
23.09,28.4091
23.17,39.7727
23.25,22.7273
23.33,31.25
23.41,14.2045
23.49,39.7727
23.57,19.8864
23.65,19.8864
23.73,28.4091
23.81,25.5682
23.89,22.7273
23.97,22.7273
24.05,14.2045
24.13,34.0909
24.21,19.8864
24.29,28.4091
24.37,42.6136
24.45,19.8864
24.53,22.7273
24.61,14.2045
24.69,22.7273
24.77,22.7273
24.85,19.8864
24.93,11.3636
25.01,5.68182
25.09,28.4091
25.17,8.52273
25.25,14.2045
25.33,11.3636
25.41,28.4091
25.49,28.4091
25.57,25.5682
25.65,8.52273
25.73,19.8864
25.81,34.0909
25.89,22.7273
25.97,22.7273
26.05,19.8864
26.13,17.0455
26.21,19.8864
26.29,19.8864
26.37,31.25
26.45,19.8864
26.53,19.8864
26.61,25.5682
26.69,31.25
26.77,22.7273
26.85,28.4091
26.93,22.7273
27.01,28.4091
27.09,19.8864
27.17,34.0909
27.25,25.5682
27.33,31.25
27.41,25.5682
27.49,22.7273
27.57,19.8864
27.65,22.7273
27.73,14.2045
27.81,34.0909
27.89,22.7273
27.97,48.2955
28.05,25.5682
28.13,36.9318
28.21,36.9318
28.29,22.7273
28.37,31.25
28.45,28.4091
28.53,34.0909
28.61,28.4091
28.69,42.6136
28.77,19.8864
28.85,25.5682
28.93,11.3636
29.01,11.3636
29.09,19.8864
29.17,28.4091
29.25,14.2045
29.33,14.2045
29.41,28.4091
29.49,17.0455
29.57,11.3636
29.65,17.0455
29.73,22.7273
29.81,17.0455
29.89,11.3636
29.97,14.2045
30.05,11.3636
30.13,14.2045
30.21,25.5682
30.29,19.8864
30.37,19.8864
30.45,25.5682
30.53,5.68182
30.61,22.7273
30.69,14.2045
30.77,25.5682
30.85,11.3636
30.93,19.8864
31.01,17.0455
31.09,17.0455
31.17,8.52273
31.25,14.2045
31.33,19.8864
31.41,19.8864
31.49,14.2045
31.57,11.3636
31.65,22.7273
31.73,8.52273
31.81,17.0455
31.89,22.7273
31.97,17.0455
32.05,11.3636
32.13,14.2045
32.21,19.8864
32.29,17.0455
32.37,17.0455
32.45,17.0455
32.53,0
32.61,8.52273
32.69,11.3636
32.77,17.0455
32.85,5.68182
32.93,28.4091
33.01,36.9318
33.09,28.4091
33.17,34.0909
33.25,25.5682
33.33,25.5682
33.41,45.4545
33.49,28.4091
33.57,36.9318
33.65,39.7727
33.73,42.6136
33.81,31.25
33.89,51.1364
33.97,45.4545
34.05,56.8182
34.13,36.9318
34.21,48.2955
34.29,39.7727
34.37,28.4091
34.45,36.9318
34.53,34.0909
34.61,28.4091
34.69,17.0455
34.77,25.5682
34.85,34.0909
34.93,19.8864
35.01,8.52273
35.09,17.0455
35.17,22.7273
35.25,28.4091
35.33,22.7273
35.41,2.84091
35.49,8.52273
35.57,28.4091
35.65,5.68182
35.73,17.0455
35.81,5.68182
35.89,17.0455
35.97,17.0455
36.05,14.2045
36.13,8.52273
36.21,14.2045
36.29,2.84091
36.37,8.52273
36.45,8.52273
36.53,11.3636
36.61,14.2045
36.69,8.52273
36.77,19.8864
36.85,11.3636
36.93,5.68182
37.01,22.7273
37.09,14.2045
37.17,8.52273
37.25,11.3636
37.33,8.52273
37.41,2.84091
37.49,5.68182
37.57,14.2045
37.65,5.68182
37.73,0
37.81,8.52273
37.89,14.2045
37.97,14.2045
38.05,11.3636
38.13,14.2045
38.21,11.3636
38.29,5.68182
38.37,5.68182
38.45,8.52273
38.53,2.84091
38.61,5.68182
38.69,5.68182
38.77,11.3636
38.85,8.52273
38.93,11.3636
39.01,11.3636
39.09,8.52273
39.17,14.2045
39.25,5.68182
39.33,5.68182
39.41,22.7273
39.49,14.2045
39.57,8.52273
39.65,8.52273
39.73,14.2045
39.81,5.68182
39.89,11.3636
39.97,11.3636
40.05,8.52273
40.13,14.2045
40.21,5.68182
40.29,5.68182
40.37,11.3636
40.45,14.2045
40.53,14.2045
40.61,8.52273
40.69,11.3636
40.77,2.84091
40.85,8.52273
40.93,2.84091
41.01,8.52273
41.09,5.68182
41.17,11.3636
41.25,11.3636
41.33,8.52273
41.41,8.52273
41.49,5.68182
41.57,2.84091
41.65,8.52273
41.73,14.2045
41.81,14.2045
41.89,8.52273
41.97,22.7273
42.05,8.52273
42.13,2.84091
42.21,8.52273
42.29,2.84091
42.37,17.0455
42.45,14.2045
42.53,8.52273
42.61,14.2045
42.69,14.2045
42.77,14.2045
42.85,8.52273
42.93,8.52273
43.01,8.52273
43.09,8.52273
43.17,8.52273
43.25,14.2045
43.33,14.2045
43.41,8.52273
43.49,2.84091
43.57,2.84091
43.65,5.68182
43.73,11.3636
43.81,17.0455
43.89,11.3636
43.97,14.2045
44.05,11.3636
44.13,5.68182
44.21,8.52273
44.29,5.68182
44.37,14.2045
44.45,19.8864
44.53,14.2045
44.61,17.0455
44.69,17.0455
44.77,8.52273
44.85,11.3636
44.93,17.0455
45.01,17.0455
45.09,14.2045
45.17,8.52273
45.25,22.7273
45.33,34.0909
45.41,39.7727
45.49,31.25
45.57,42.6136
45.65,28.4091
45.73,39.7727
45.81,56.8182
45.89,62.5
45.97,90.9091
46.05,110.795
46.13,184.659
46.21,318.182
46.29,636.364
46.37,2724.43
46.45,1.49825e+06
46.53,8261.36
46.61,826.705
46.69,286.932
46.77,164.773
46.85,122.159
46.93,53.9773
47.01,59.6591
47.09,48.2955
47.17,48.2955
47.25,31.25
47.33,31.25
47.41,22.7273
47.49,11.3636
47.57,17.0455
47.65,19.8864
47.73,14.2045
47.81,17.0455
47.89,19.8864
47.97,2.84091
48.05,2.84091
48.13,5.68182
48.21,25.5682
48.29,5.68182
48.37,8.52273
48.45,5.68182
48.53,8.52273
48.61,2.84091
48.69,17.0455
48.77,8.52273
48.85,0
48.93,8.52273
49.01,17.0455
49.09,8.52273
49.17,11.3636
49.25,22.7273
49.33,11.3636
49.41,8.52273
49.49,5.68182
49.57,14.2045
49.65,11.3636
49.73,17.0455
49.81,11.3636
49.89,14.2045
49.97,14.2045
50.05,11.3636
50.13,2.84091
50.21,2.84091
50.29,5.68182
50.37,14.2045
50.45,2.84091
50.53,5.68182
50.61,5.68182
50.69,5.68182
50.77,2.84091
50.85,2.84091
50.93,8.52273
51.01,2.84091
51.09,2.84091
51.17,2.84091
51.25,8.52273
51.33,8.52273
51.41,2.84091
51.49,2.84091
51.57,0
51.65,11.3636
51.73,2.84091
51.81,2.84091
51.89,5.68182
51.97,2.84091
52.05,0
52.13,11.3636
52.21,5.68182
52.29,11.3636
52.37,14.2045
52.45,2.84091
52.53,5.68182
52.61,5.68182
52.69,11.3636
52.77,8.52273
52.85,2.84091
52.93,0
53.01,2.84091
53.09,0
53.17,2.84091
53.25,11.3636
53.33,2.84091
53.41,8.52273
53.49,2.84091
53.57,8.52273
53.65,8.52273
53.73,5.68182
53.81,5.68182
53.89,5.68182
53.97,2.84091
54.05,0
54.13,0
54.21,5.68182
54.29,8.52273
54.37,0
54.45,2.84091
54.53,14.2045
54.61,14.2045
54.69,5.68182
54.77,2.84091
54.85,11.3636
54.93,5.68182
55.01,2.84091
55.09,17.0455
55.17,5.68182
55.25,0
55.33,5.68182
55.41,2.84091
55.49,8.52273
55.57,0
55.65,17.0455
55.73,5.68182
55.81,2.84091
55.89,14.2045
55.97,8.52273
56.05,8.52273
56.13,14.2045
56.21,5.68182
56.29,5.68182
56.37,2.84091
56.45,0
56.53,5.68182
56.61,5.68182
56.69,11.3636
56.77,2.84091
56.85,2.84091
56.93,5.68182
57.01,5.68182
57.09,11.3636
57.17,5.68182
57.25,0
57.33,8.52273
57.41,0
57.49,5.68182
57.57,5.68182
57.65,5.68182
57.73,8.52273
57.81,8.52273
57.89,11.3636
57.97,0
58.05,5.68182
58.13,5.68182
58.21,2.84091
58.29,8.52273
58.37,2.84091
58.45,0
58.53,8.52273
58.61,2.84091
58.69,0
58.77,2.84091
58.85,14.2045
58.93,2.84091
59.01,2.84091
59.09,2.84091
59.17,5.68182
59.25,8.52273
59.33,5.68182
59.41,5.68182
59.49,2.84091
59.57,5.68182
59.65,8.52273
59.73,5.68182
59.81,2.84091
59.89,5.68182
59.97,5.68182
60.05,11.3636
60.13,2.84091
60.21,2.84091
60.29,5.68182
60.37,5.68182
60.45,0
60.53,5.68182
60.61,11.3636
60.69,8.52273
60.77,2.84091
60.85,2.84091
60.93,0
61.01,2.84091
61.09,11.3636
61.17,8.52273
61.25,19.8864
61.33,2.84091
61.41,14.2045
61.49,8.52273
61.57,5.68182
61.65,2.84091
61.73,0
61.81,8.52273
61.89,5.68182
61.97,2.84091
62.05,2.84091
62.13,2.84091
62.21,8.52273
62.29,0
62.37,11.3636
62.45,5.68182
62.53,11.3636
62.61,14.2045
62.69,2.84091
62.77,11.3636
62.85,2.84091
62.93,11.3636
63.01,2.84091
63.09,11.3636
63.17,0
63.25,8.52273
63.33,11.3636
63.41,8.52273
63.49,5.68182
63.57,8.52273
63.65,5.68182
63.73,8.52273
63.81,5.68182
63.89,5.68182
63.97,11.3636
64.05,5.68182
64.13,2.84091
64.21,5.68182
64.29,2.84091
64.37,14.2045
64.45,11.3636
64.53,2.84091
64.61,5.68182
64.69,5.68182
64.77,5.68182
64.85,2.84091
64.93,19.8864
65.01,5.68182
65.09,5.68182
65.17,5.68182
65.25,5.68182
65.33,2.84091
65.41,5.68182
65.49,2.84091
65.57,11.3636
65.65,2.84091
65.73,11.3636
65.81,5.68182
65.89,5.68182
65.97,8.52273
66.05,5.68182
66.13,8.52273
66.21,5.68182
66.29,8.52273
66.37,8.52273
66.45,2.84091
66.53,11.3636
66.61,5.68182
66.69,2.84091
66.77,14.2045
66.85,8.52273
66.93,5.68182
67.01,8.52273
67.09,11.3636
67.17,11.3636
67.25,2.84091
67.33,5.68182
67.41,8.52273
67.49,8.52273
67.57,14.2045
67.65,2.84091
67.73,2.84091
67.81,5.68182
67.89,8.52273
67.97,5.68182
68.05,0
68.13,8.52273
68.21,0
68.29,2.84091
68.37,5.68182
68.45,5.68182
68.53,2.84091
68.61,0
68.69,5.68182
68.77,0
68.85,8.52273
68.93,5.68182
69.01,5.68182
69.09,0
69.17,2.84091
69.25,2.84091
69.33,11.3636
69.41,5.68182
69.49,5.68182
69.57,2.84091
69.65,14.2045
69.73,17.0455
69.81,2.84091
69.89,5.68182
69.97,5.68182
70.05,2.84091
70.13,2.84091
70.21,8.52273
70.29,8.52273
70.37,11.3636
70.45,2.84091
70.53,5.68182
70.61,11.3636
70.69,5.68182
70.77,2.84091
70.85,5.68182
70.93,11.3636
71.01,2.84091
71.09,0
71.17,14.2045
71.25,2.84091
71.33,5.68182
71.41,2.84091
71.49,14.2045
71.57,11.3636
71.65,11.3636
71.73,8.52273
71.81,11.3636
71.89,2.84091
71.97,5.68182
72.05,5.68182
72.13,8.52273
72.21,5.68182
72.29,2.84091
72.37,8.52273
72.45,42.6136
72.53,18113.6
72.61,238.636
72.69,17.0455
72.77,8.52273
72.85,17.0455
72.93,8.52273
73.01,11.3636
73.09,17.0455
73.17,5.68182
73.25,5.68182
73.33,14.2045
73.41,2.84091
73.49,8.52273
73.57,8.52273
73.65,8.52273
73.73,5.68182
73.81,0
73.89,5.68182
73.97,8.52273
74.05,2.84091
74.13,8.52273
74.21,5.68182
74.29,8.52273
74.37,2.84091
74.45,5.68182
74.53,5.68182
74.61,11.3636
74.69,11.3636
74.77,2.84091
74.85,0
74.93,5.68182
75.01,5.68182
75.09,2.84091
75.17,0
75.25,11.3636
75.33,0
75.41,2.84091
75.49,2.84091
75.57,5.68182
75.65,14.2045
75.73,8.52273
75.81,11.3636
75.89,5.68182
75.97,2.84091
76.05,2.84091
76.13,5.68182
76.21,11.3636
76.29,0
76.37,0
76.45,2.84091
76.53,5.68182
76.61,8.52273
76.69,2.84091
76.77,5.68182
76.85,5.68182
76.93,8.52273
77.01,8.52273
77.09,0
77.17,8.52273
77.25,2.84091
77.33,11.3636
77.41,5.68182
77.49,8.52273
77.57,0
77.65,0
77.73,5.68182
77.81,5.68182
77.89,0
77.97,8.52273
78.05,0
78.13,2.84091
78.21,5.68182
78.29,8.52273
78.37,2.84091
78.45,2.84091
78.53,2.84091
78.61,2.84091
78.69,2.84091
78.77,2.84091
78.85,2.84091
78.93,5.68182
79.01,2.84091
79.09,8.52273
79.17,2.84091
79.25,2.84091
79.33,2.84091
79.41,2.84091
79.49,8.52273
79.57,2.84091
79.65,2.84091
79.73,8.52273
79.81,0
79.89,0
79.97,0
80.05,2.84091
80.13,14.2045
80.21,2.84091
80.29,8.52273
80.37,5.68182
80.45,8.52273
80.53,2.84091
80.61,5.68182
80.69,2.84091
80.77,5.68182
80.85,5.68182
80.93,5.68182
81.01,2.84091
81.09,8.52273
81.17,5.68182
81.25,2.84091
81.33,2.84091
81.41,2.84091
81.49,14.2045
81.57,11.3636
81.65,11.3636
81.73,2.84091
81.81,0
81.89,5.68182
81.97,5.68182
82.05,11.3636
82.13,2.84091
82.21,11.3636
82.29,0
82.37,5.68182
82.45,5.68182
82.53,0
82.61,0
82.69,8.52273
82.77,2.84091
82.85,5.68182
82.93,5.68182
83.01,5.68182
83.09,2.84091
83.17,5.68182
83.25,5.68182
83.33,5.68182
83.41,14.2045
83.49,2.84091
83.57,8.52273
83.65,8.52273
83.73,8.52273
83.81,14.2045
83.89,0
83.97,2.84091
84.05,5.68182
84.13,2.84091
84.21,5.68182
84.29,5.68182
84.37,5.68182
84.45,5.68182
84.53,2.84091
84.61,5.68182
84.69,2.84091
84.77,0
84.85,2.84091
84.93,5.68182
85.01,2.84091
85.09,2.84091
85.17,0
85.25,5.68182
85.33,8.52273
85.41,0
85.49,11.3636
85.57,0
85.65,5.68182
85.73,0
85.81,11.3636
85.89,0
85.97,14.2045
86.05,5.68182
86.13,2.84091
86.21,2.84091
86.29,8.52273
86.37,8.52273
86.45,2.84091
86.53,11.3636
86.61,2.84091
86.69,5.68182
86.77,0
86.85,11.3636
86.93,2.84091
87.01,8.52273
87.09,2.84091
87.17,2.84091
87.25,5.68182
87.33,0
87.41,0
87.49,0
87.57,2.84091
87.65,0
87.73,8.52273
87.81,0
87.89,5.68182
87.97,11.3636
88.05,2.84091
88.13,5.68182
88.21,2.84091
88.29,2.84091
88.37,11.3636
88.45,5.68182
88.53,5.68182
88.61,2.84091
88.69,5.68182
88.77,2.84091
88.85,5.68182
88.93,2.84091
89.01,0
89.09,5.68182
89.17,5.68182
89.25,5.68182
89.33,2.84091
89.41,8.52273
89.49,5.68182
89.57,5.68182
89.65,11.3636
89.73,2.84091
89.81,5.68182
89.89,5.68182
89.97,5.68182
90.05,0
90.13,2.84091
90.21,0
90.29,5.68182
90.37,2.84091
90.45,2.84091
90.53,2.84091
90.61,2.84091
90.69,2.84091
90.77,0
90.85,2.84091
90.93,2.84091
91.01,2.84091
91.09,0
91.17,0
91.25,0
91.33,8.52273
91.41,2.84091
91.49,2.84091
91.57,8.52273
91.65,0
91.73,2.84091
91.81,5.68182
91.89,0
91.97,2.84091
92.05,5.68182
92.13,2.84091
92.21,8.52273
92.29,2.84091
92.37,2.84091
92.45,2.84091
92.53,11.3636
92.61,11.3636
92.69,0
92.77,8.52273
92.85,2.84091
92.93,8.52273
93.01,5.68182
93.09,5.68182
93.17,5.68182
93.25,8.52273
93.33,14.2045
93.41,0
93.49,8.52273
93.57,2.84091
93.65,2.84091
93.73,0
93.81,11.3636
93.89,8.52273
93.97,2.84091
94.05,8.52273
94.13,8.52273
94.21,8.52273
94.29,0
94.37,5.68182
94.45,2.84091
94.53,0
94.61,8.52273
94.69,8.52273
94.77,2.84091
94.85,2.84091
94.93,2.84091
95.01,8.52273
95.09,5.68182
95.17,0
95.25,2.84091
95.33,0
95.41,5.68182
95.49,2.84091
95.57,17.0455
95.65,2.84091
95.73,2.84091
95.81,2.84091
95.89,0
95.97,2.84091
96.05,8.52273
96.13,2.84091
96.21,5.68182
96.29,5.68182
96.37,0
96.45,0
96.53,2.84091
96.61,5.68182
96.69,8.52273
96.77,5.68182
96.85,2.84091
96.93,5.68182
97.01,2.84091
97.09,2.84091
97.17,11.3636
97.25,2.84091
97.33,11.3636
97.41,11.3636
97.49,5.68182
97.57,11.3636
97.65,2.84091
97.73,5.68182
97.81,0
97.89,0
97.97,5.68182
98.05,11.3636
98.13,5.68182
98.21,2.84091
98.29,2.84091
98.37,2.84091
98.45,2.84091
98.53,8.52273
98.61,11.3636
98.69,0
98.77,8.52273
98.85,11.3636
98.93,2.84091
99.01,2.84091
99.09,0
99.17,2.84091
99.25,0
99.33,0
99.41,5.68182
99.49,5.68182
99.57,5.68182
99.65,2.84091
99.73,5.68182
99.81,5.68182
99.89,2.84091
99.97,5.68182
100.05,0
100.13,0
100.21,5.68182
100.29,5.68182
100.37,5.68182
100.45,5.68182
100.53,2.84091
100.61,0
100.69,0
100.77,8.52273
100.85,8.52273
100.93,2.84091
101.01,8.52273
101.09,11.3636
101.17,8.52273
101.25,2.84091
101.33,8.52273
101.41,8.52273
101.49,5.68182
101.57,8.52273
101.65,2.84091
101.73,8.52273
101.81,5.68182
101.89,2.84091
101.97,8.52273
102.05,8.52273
102.13,11.3636
102.21,8.52273
102.29,0
102.37,2.84091
102.45,2.84091
102.53,8.52273
102.61,0
102.69,8.52273
102.77,0
102.85,14.2045
102.93,2.84091
103.01,2.84091
103.09,14.2045
103.17,11.3636
103.25,8.52273
103.33,8.52273
103.41,17.0455
103.49,19.8864
103.57,19.8864
103.65,19.8864
103.73,22.7273
103.81,31.25
103.89,68.1818
103.97,125
104.05,590.909
104.13,35096.6
104.21,94812.5
104.29,1284.09
104.37,133.523
104.45,65.3409
104.53,28.4091
104.61,28.4091
104.69,19.8864
104.77,25.5682
104.85,2.84091
104.93,17.0455
105.01,17.0455
105.09,5.68182
105.17,11.3636
105.25,5.68182
105.33,5.68182
105.41,2.84091
105.49,2.84091
105.57,5.68182
105.65,5.68182
105.73,0
105.81,11.3636
105.89,2.84091
105.97,11.3636
106.05,2.84091
106.13,8.52273
106.21,2.84091
106.29,5.68182
106.37,8.52273
106.45,11.3636
106.53,0
106.61,5.68182
106.69,0
106.77,0
106.85,2.84091
106.93,2.84091
107.01,0
107.09,2.84091
107.17,2.84091
107.25,5.68182
107.33,2.84091
107.41,0
107.49,0
107.57,5.68182
107.65,5.68182
107.73,2.84091
107.81,2.84091
107.89,0
107.97,8.52273
108.05,0
108.13,8.52273
108.21,5.68182
108.29,8.52273
108.37,2.84091
108.45,2.84091
108.53,0
108.61,5.68182
108.69,2.84091
108.77,5.68182
108.85,5.68182
108.93,8.52273
109.01,2.84091
109.09,0
109.17,5.68182
109.25,2.84091
109.33,2.84091
109.41,2.84091
109.49,0
109.57,0
109.65,5.68182
109.73,11.3636
109.81,5.68182
109.89,0
109.97,8.52273
110.05,0
110.13,5.68182
110.21,5.68182
110.29,2.84091
110.37,2.84091
110.45,5.68182
110.53,2.84091
110.61,5.68182
110.69,2.84091
110.77,5.68182
110.85,2.84091
110.93,5.68182
111.01,2.84091
111.09,5.68182
111.17,5.68182
111.25,0
111.33,0
111.41,0
111.49,0
111.57,0
111.65,5.68182
111.73,0
111.81,5.68182
111.89,0
111.97,2.84091
112.05,2.84091
112.13,2.84091
112.21,11.3636
112.29,0
112.37,0
112.45,5.68182
112.53,5.68182
112.61,2.84091
112.69,2.84091
112.77,2.84091
112.85,5.68182
112.93,2.84091
113.01,5.68182
113.09,8.52273
113.17,5.68182
113.25,0
113.33,5.68182
113.41,2.84091
113.49,5.68182
113.57,2.84091
113.65,2.84091
113.73,0
113.81,2.84091
113.89,0
113.97,2.84091
114.05,8.52273
114.13,2.84091
114.21,0
114.29,2.84091
114.37,2.84091
114.45,2.84091
114.53,5.68182
114.61,2.84091
114.69,2.84091
114.77,2.84091
114.85,0
114.93,11.3636
115.01,0
115.09,2.84091
115.17,2.84091
115.25,5.68182
115.33,8.52273
115.41,0
115.49,8.52273
115.57,2.84091
115.65,11.3636
115.73,5.68182
115.81,2.84091
115.89,2.84091
115.97,5.68182
116.05,14.2045
116.13,2.84091
116.21,2.84091
116.29,2.84091
116.37,2.84091
116.45,2.84091
116.53,2.84091
116.61,2.84091
116.69,5.68182
116.77,0
116.85,0
116.93,8.52273
117.01,5.68182
117.09,2.84091
117.17,2.84091
117.25,14.2045
117.33,2.84091
117.41,5.68182
117.49,11.3636
117.57,5.68182
117.65,0
117.73,2.84091
117.81,0
117.89,2.84091
117.97,5.68182
118.05,2.84091
118.13,8.52273
118.21,5.68182
118.29,0
118.37,0
118.45,2.84091
118.53,5.68182
118.61,5.68182
118.69,8.52273
118.77,0
118.85,2.84091
118.93,0
119.01,5.68182
119.09,5.68182
119.17,0
119.25,5.68182
119.33,5.68182
119.41,11.3636
119.49,2.84091
119.57,2.84091
119.65,0
119.73,11.3636
119.81,5.68182
119.89,5.68182
119.97,0
119.99,5.68182